File: Projects/Proj3-Complete/data/linear_data.csv
Cement (component 1)(kg in a m^3 mixture),Blast Furnace Slag (component 2)(kg in a m^3 mixture),Fly Ash (component 3)(kg in a m^3 mixture),Water  (component 4)(kg in a m^3 mixture),Superplasticizer (component 5)(kg in a m^3 mixture),Coarse Aggregate  (component 6)(kg in a m^3 mixture),Fine Aggregate (component 7)(kg in a m^3 mixture),Age (day),"Concrete compressive strength(MPa, megapascals) "
1.0,0.0,0.0,0.321086,0.0776398,0.694767,0.20572,0.0741758,79.99
0.526256,0.396494,0.0,0.848243,0.0,0.380814,0.0,0.739011,40.27
0.220548,0.368392,0.0,0.560703,0.0,0.515698,0.580783,0.986264,44.3
0.634703,0.264329,0.0,0.848243,0.0,0.380814,0.0,1.0,43.7
0.374429,0.317195,0.0,0.848243,0.0,0.380814,0.190667,0.0741758,45.85
0.220548,0.368392,0.0,0.560703,0.0,0.515698,0.580783,0.244505,38.07
0.743151,0.132165,0.0,0.848243,0.0,0.380814,0.0,0.739011,43.01
0.461187,0.211464,0.0,0.848243,0.0,0.380814,0.190667,0.0741758,47.81
0.0858447,0.582638,0.0,0.560703,0.0,0.715116,0.534119,0.244505,39.36
0.634703,0.264329,0.0,0.848243,0.0,0.380814,0.0,0.244505,40.56
0.743151,0.132165,0.0,0.848243,0.0,0.380814,0.0,0.491758,41.84
0.0858447,0.582638,0.0,0.560703,0.0,0.715116,0.534119,0.00549451,8.06
0.634703,0.0,0.0,0.848243,0.0,0.380814,0.190667,1.0,52.52
0.634703,0.264329,0.0,0.848243,0.0,0.380814,0.0,0.739011,41.15
0.743151,0.132165,0.0,0.848243,0.0,0.380814,0.0,0.0741758,37.43
0.461187,0.211464,0.0,0.848243,0.0,0.380814,0.190667,1.0,55.26
0.220548,0.368392,0.0,0.560703,0.0,0.515698,0.580783,0.491758,41.72
0.200913,0.528659,0.0,0.848243,0.0,0.380814,0.190667,1.0,53.69
0.309361,0.660824,0.0,0.848243,0.0,0.380814,0.0,0.0741758,30.08
0.851598,0.0,0.0,0.848243,0.0,0.380814,0.0,0.244505,42.23
0.547945,0.105732,0.0,0.848243,0.0,0.380814,0.190667,0.244505,50.46
0.309361,0.660824,0.0,0.848243,0.0,0.380814,0.0,1.0,39.0
0.743151,0.132165,0.0,0.848243,0.0,0.380814,0.0,0.244505,41.54
0.563927,0.0,0.0,0.560703,0.0,0.715116,0.534119,0.00549451,15.05
0.309361,0.660824,0.0,0.848243,0.0,0.380814,0.0,0.0164835,26.26
0.526256,0.396494,0.0,0.848243,0.0,0.380814,0.0,0.491758,39.78
0.309361,0.660824,0.0,0.848243,0.0,0.380814,0.0,0.244505,33.12
0.0858447,0.582638,0.0,0.560703,0.0,0.715116,0.534119,0.0164835,14.59
0.851598,0.0,0.0,0.848243,0.0,0.380814,0.0,1.0,41.93
0.461187,0.211464,0.0,0.848243,0.0,0.380814,0.190667,0.491758,50.95
0.461187,0.211464,0.0,0.848243,0.0,0.380814,0.190667,0.739011,54.38
0.474886,0.0,0.0,0.560703,0.0,0.494186,0.643753,0.00549451,9.87
0.374429,0.317195,0.0,0.848243,0.0,0.380814,0.190667,0.491758,48.7
0.0858447,0.582638,0.0,0.560703,0.0,0.715116,0.534119,0.986264,44.7
0.200913,0.528659,0.0,0.848243,0.0,0.380814,0.190667,0.0741758,40.86
0.621005,0.526433,0.0,0.385783,0.313665,0.363663,0.408179,0.00549451,34.4
0.737443,0.295771,0.0,0.253195,0.512422,0.148547,0.735324,0.00549451,33.4
0.623288,0.260991,0.0,0.0383387,0.726708,0.148547,1,0.00549451,29.0
0.8379,0.326099,0.0,0.127796,1.0,0.148547,0.618414,0.00549451,40.2
0.654338,0.270173,0.0,0.288339,0.375776,0.148547,0.832163,0.00549451,28.1
0.737443,0.295771,0.0,0.253195,0.512422,0.148547,0.735324,0.00549451,33.4
0.684475,0.263495,0.0,0.204473,0.354037,0.423837,0.647516,0.00549451,41.1
0.506164,0.786867,0.0,0.495208,0.319876,0.411919,0.165329,0.00549451,28.3
0.594977,0.525876,0.0,0.344249,0.360248,0.417733,0.405921,0.00549451,35.3
0.594977,0.525876,0.0,0.344249,0.360248,0.417733,0.405921,0.00549451,35.3
0.657306,0.525876,0.0,0.192492,0.68323,0.417733,0.405921,0.00549451,40.6
0.538584,0.525876,0.0,0.424121,0.295031,0.417733,0.405921,0.00549451,24.1
0.48242,0.729549,0.0,0.428914,0.267081,0.714826,0.0446563,0.0164835,42.8
0.737443,0.295771,0.0,0.236422,0.57764,0.392442,0.526091,0.0164835,46.8
0.851598,0.330551,0.0,0.473642,0.276398,0.148547,0.470396,0.0164835,55.6
0.737443,0.295771,0.0,0.253195,0.512422,0.148547,0.735324,0.0164835,49.2
0.980137,0.0,0.0,0.159744,0.875776,0.148547,0.751882,0.0164835,46.9
0.494977,0.591263,0.0,0.270767,0.444099,0.148547,0.718515,0.0164835,33.4
0.594977,0.525876,0.0,0.344249,0.360248,0.417733,0.405921,0.0164835,55.9
0.633562,0.420701,0.0,0.25639,0.493789,0.968895,0.0275966,0.0164835,47.1
0.420776,0.558987,0.0,0.182907,0.347826,0.59186,0.526091,0.0164835,38.0
0.769406,0.492487,0.0,0.51278,0.34472,0.243895,0.28575,0.0164835,56.1
0.594977,0.525876,0.0,0.344249,0.360248,0.417733,0.405921,0.0164835,22.9
0.621005,0.526433,0.0,0.385783,0.313665,0.363663,0.408179,0.0741758,61.09
0.737443,0.295771,0.0,0.253195,0.512422,0.148547,0.735324,0.0741758,60.29
0.623288,0.260991,0.0,0.0383387,0.726708,0.148547,1,0.0741758,56.7
0.8379,0.326099,0.0,0.127796,1.0,0.148547,0.618414,0.0741758,66.9
0.654338,0.270173,0.0,0.288339,0.375776,0.148547,0.832163,0.0741758,50.7
0.737443,0.295771,0.0,0.253195,0.512422,0.148547,0.735324,0.0741758,60.29
0.684475,0.263495,0.0,0.204473,0.354037,0.423837,0.647516,0.0741758,68.5
0.506164,0.786867,0.0,0.495208,0.319876,0.411919,0.165329,0.0741758,74.7
0.594977,0.525876,0.0,0.344249,0.360248,0.417733,0.405921,0.0741758,71.3
0.594977,0.525876,0.0,0.344249,0.360248,0.417733,0.405921,0.0741758,71.3
0.657306,0.525876,0.0,0.192492,0.68323,0.417733,0.405921,0.0741758,74.5
0.538584,0.525876,0.0,0.424121,0.295031,0.417733,0.405921,0.0741758,49.9
0.48242,0.729549,0.0,0.428914,0.267081,0.714826,0.0446563,0.151099,64.9
0.737443,0.295771,0.0,0.236422,0.57764,0.392442,0.526091,0.151099,64.9
0.851598,0.330551,0.0,0.473642,0.276398,0.148547,0.470396,0.151099,72.3
0.737443,0.295771,0.0,0.253195,0.512422,0.148547,0.735324,0.151099,64.3
0.980137,0.0,0.0,0.159744,0.875776,0.148547,0.751882,0.151099,58.8
0.494977,0.591263,0.0,0.270767,0.444099,0.148547,0.718515,0.151099,66.1
0.594977,0.525876,0.0,0.344249,0.360248,0.417733,0.405921,0.151099,77.3
0.633562,0.420701,0.0,0.25639,0.493789,0.968895,0.0275966,0.151099,54.9
0.420776,0.558987,0.0,0.182907,0.347826,0.59186,0.526091,0.151099,72.99
0.769406,0.492487,0.0,0.51278,0.34472,0.243895,0.28575,0.151099,71.7
0.594977,0.525876,0.0,0.344249,0.360248,0.417733,0.405921,0.151099,77.3
0.621005,0.526433,0.0,0.385783,0.313665,0.363663,0.408179,0.247253,64.9
0.737443,0.295771,0.0,0.253195,0.512422,0.148547,0.735324,0.247253,65.2
0.623288,0.260991,0.0,0.0383387,0.726708,0.148547,1,0.247253,62.5
0.8379,0.326099,0.0,0.127796,1.0,0.148547,0.618414,0.247253,70.7
0.654338,0.270173,0.0,0.288339,0.375776,0.148547,0.832163,0.247253,57.6
0.737443,0.295771,0.0,0.253195,0.512422,0.148547,0.735324,0.247253,65.2
0.684475,0.263495,0.0,0.204473,0.354037,0.423837,0.647516,0.247253,75.5
0.633562,0.420701,0.0,0.25639,0.493789,0.968895,0.0275966,0.247253,56.5
0.420776,0.558987,0.0,0.182907,0.347826,0.59186,0.526091,0.247253,76.8
0.769406,0.492487,0.0,0.51278,0.34472,0.243895,0.28575,0.247253,73.3
0.594977,0.525876,0.0,0.344249,0.360248,0.417733,0.405921,0.247253,79.3
0.274886,0.0,0.483258,0.539137,0.139752,0.482849,0.693176,0.00549451,11.58
0.274886,0.0,0.483258,0.539137,0.139752,0.482849,0.693176,0.0741758,24.89
0.274886,0.0,0.483258,0.539137,0.139752,0.482849,0.693176,0.271978,40.71
0.300913,0.0,0.472764,0.607827,0.142857,0.424419,0.647767,0.0357143,22.14
0.300913,0.0,0.472764,0.607827,0.142857,0.424419,0.647767,0.151099,27.66
0.211644,0.0,0.502249,0.34984,0.232919,0.597093,0.782489,0.00549451,12.45
0.211644,0.0,0.502249,0.34984,0.232919,0.597093,0.782489,0.0741758,25.72
0.211644,0.0,0.502249,0.34984,0.232919,0.597093,0.782489,0.271978,37.34
0.202511,0.0,0.626687,0.321885,0.242236,0.840116,0.526844,0.0357143,21.06
0.202511,0.0,0.626687,0.321885,0.242236,0.840116,0.526844,0.151099,35.34
0.25137,0.0,0.607696,0.467252,0.177019,0.74593,0.464877,0.00549451,12.47
0.25137,0.0,0.607696,0.467252,0.177019,0.74593,0.464877,0.0741758,24.9
0.25137,0.0,0.607696,0.467252,0.177019,0.74593,0.464877,0.271978,39.61
0.292237,0.0,0.591204,0.588658,0.142857,0.663953,0.412945,0.0357143,20.08
0.292237,0.0,0.591204,0.588658,0.142857,0.663953,0.412945,0.151099,31.54
0.201598,0.0,0.625687,0.320288,0.307453,0.834593,0.523332,0.00549451,9.45
0.201598,0.0,0.625687,0.320288,0.307453,0.834593,0.523332,0.0741758,28.47
0.201598,0.0,0.625687,0.320288,0.307453,0.834593,0.523332,0.271978,40.39
0.146347,0.0,0.816092,0.436901,0.139752,0.748837,0.466884,0.0357143,25.48
0.146347,0.0,0.816092,0.436901,0.139752,0.748837,0.466884,0.151099,28.63
0.150685,0.11714,0.818591,0.0,0.177019,0.749128,0.466884,0.00549451,7.75
0.150685,0.11714,0.818591,0.0,0.177019,0.749128,0.466884,0.0741758,24.24
0.150685,0.11714,0.818591,0.0,0.177019,0.749128,0.466884,0.271978,39.23
0.255023,0.272955,0.122439,0.478435,0.214286,0.769767,0.480181,0.0357143,30.39
0.255023,0.272955,0.122439,0.478435,0.214286,0.769767,0.480181,0.151099,50.77
0.255251,0.272955,0.122439,0.478435,0.208075,0.770349,0.480432,0.00549451,13.18
0.255251,0.272955,0.122439,0.478435,0.208075,0.770349,0.480432,0.0741758,40.23
0.255251,0.272955,0.122439,0.478435,0.208075,0.770349,0.480432,0.271978,49.97
0.291553,0.0,0.590705,0.586262,0.189441,0.660174,0.410437,0.0357143,22.32
0.291553,0.0,0.590705,0.586262,0.189441,0.660174,0.410437,0.151099,31.35
0.310731,0.0,0.470265,0.518371,0.217391,0.432849,0.634722,0.00549451,19.93
0.310731,0.0,0.470265,0.518371,0.217391,0.432849,0.634722,0.0741758,30.23
0.310731,0.0,0.470265,0.518371,0.217391,0.432849,0.634722,0.271978,44.3
0.3379,0.0,0.478261,0.523962,0.170807,0.453198,0.670346,0.0357143,24.92
0.3379,0.0,0.478261,0.523962,0.170807,0.453198,0.670346,0.151099,38.33
0.252283,0.0,0.501749,0.299521,0.270186,0.601163,0.776719,0.00549451,13.54
0.252283,0.0,0.501749,0.299521,0.270186,0.601163,0.776719,0.0741758,31.64
0.252283,0.0,0.501749,0.299521,0.270186,0.601163,0.776719,0.271978,42.92
0.252511,0.0,0.501749,0.300319,0.322981,0.589535,0.77722,0.0357143,25.37
0.252511,0.0,0.501749,0.300319,0.322981,0.589535,0.77722,0.151099,44.4
0.251142,0.0,0.623688,0.297125,0.242236,0.826744,0.515554,0.00549451,19.52
0.251142,0.0,0.623688,0.297125,0.242236,0.826744,0.515554,0.0741758,38.5
0.251142,0.0,0.623688,0.297125,0.242236,0.826744,0.515554,0.271978,47.82
0.296347,0.0,0.607696,0.416933,0.208075,0.742442,0.46287,0.0357143,26.77
0.296347,0.0,0.607696,0.416933,0.208075,0.742442,0.46287,0.151099,42.7
0.341096,0.0,0.591204,0.532748,0.180124,0.661047,0.410687,0.00549451,17.22
0.341096,0.0,0.591204,0.532748,0.180124,0.661047,0.410687,0.0741758,29.65
0.341096,0.0,0.591204,0.532748,0.180124,0.661047,0.410687,0.271978,43.58
0.341096,0.0,0.591204,0.532748,0.198758,0.661047,0.410687,0.0357143,24.43
0.341096,0.0,0.591204,0.532748,0.198758,0.661047,0.410687,0.151099,36.64
0.181279,0.0,0.834583,0.381789,0.236025,0.740116,0.461114,0.00549451,13.62
0.181279,0.0,0.834583,0.381789,0.236025,0.740116,0.461114,0.0741758,27.77
0.181279,0.0,0.834583,0.381789,0.236025,0.740116,0.461114,0.271978,45.37
0.182648,0.125765,0.609695,0.386581,0.254658,0.751163,0.468389,0.0357143,21.5
0.182648,0.125765,0.609695,0.386581,0.254658,0.751163,0.468389,0.151099,43.5
0.15274,0.117418,0.621189,0.291534,0.335404,0.813372,0.507275,0.00549451,7.4
0.15274,0.117418,0.621189,0.291534,0.335404,0.813372,0.507275,0.0741758,31.12
0.15274,0.117418,0.621189,0.291534,0.335404,0.813372,0.507275,0.271978,48.15
0.430137,0.0,0.48076,0.369808,0.291925,0.465698,0.67988,0.0357143,34.67
0.430137,0.0,0.48076,0.369808,0.291925,0.465698,0.67988,0.151099,45.08
0.399772,0.0,0.486757,0.309904,0.36646,0.502616,0.706473,0.00549451,23.14
0.399772,0.0,0.486757,0.309904,0.36646,0.502616,0.706473,0.0741758,48.28
0.399772,0.0,0.486757,0.309904,0.36646,0.502616,0.706473,0.271978,55.64
0.442237,0.0,0.477761,0.396965,0.276398,0.447965,0.665329,0.0357143,35.23
0.442237,0.0,0.477761,0.396965,0.276398,0.447965,0.665329,0.151099,48.72
0.342009,0.0,0.49925,0.194089,0.385093,0.59593,0.767185,0.00549451,21.02
0.342009,0.0,0.49925,0.194089,0.385093,0.59593,0.767185,0.0741758,33.94
0.342009,0.0,0.49925,0.194089,0.385093,0.59593,0.767185,0.271978,45.37
0.335845,0.0,0.493753,0.289936,0.397516,0.543023,0.74009,0.0357143,28.68
0.335845,0.0,0.493753,0.289936,0.397516,0.543023,0.74009,0.151099,42.03
0.343151,0.0,0.493753,0.195687,0.440994,0.543023,0.74009,0.00549451,21.78
0.343151,0.0,0.493753,0.195687,0.440994,0.543023,0.74009,0.0741758,50.6
0.343151,0.0,0.493753,0.195687,0.440994,0.543023,0.74009,0.271978,60.95
0.330594,0.0,0.625187,0.171725,0.372671,0.830814,0.519067,0.0357143,42.22
0.330594,0.0,0.625187,0.171725,0.372671,0.830814,0.519067,0.151099,60.32
0.395205,0.0,0.606697,0.301118,0.307453,0.734302,0.460361,0.00549451,23.8
0.395205,0.0,0.606697,0.301118,0.307453,0.734302,0.460361,0.0741758,51.33
0.395205,0.0,0.606697,0.301118,0.307453,0.734302,0.460361,0.271978,58.61
0.445662,0.0,0.587206,0.423323,0.295031,0.644767,0.400151,0.0357143,36.99
0.445662,0.0,0.587206,0.423323,0.295031,0.644767,0.400151,0.151099,51.96
0.255023,0.0,0.873063,0.263578,0.31677,0.734012,0.457602,0.00549451,17.57
0.255023,0.0,0.873063,0.263578,0.31677,0.734012,0.457602,0.0741758,40.15
0.255023,0.0,0.873063,0.263578,0.31677,0.734012,0.457602,0.271978,50.08
0.254566,0.0,0.870565,0.261981,0.363354,0.730523,0.455344,0.0357143,33.7
0.254566,0.0,0.870565,0.261981,0.363354,0.730523,0.455344,0.151099,51.43
0.4,0.27212,0.122439,0.310703,0.347826,0.757849,0.472905,0.00549451,30.45
0.4,0.27212,0.122439,0.310703,0.347826,0.757849,0.472905,0.0741758,63.14
0.4,0.27212,0.122439,0.310703,0.347826,0.757849,0.472905,0.271978,66.95
0.265297,0.15192,0.618691,0.151757,0.369565,0.798547,0.498495,0.0357143,35.96
0.265297,0.15192,0.618691,0.151757,0.369565,0.798547,0.498495,0.151099,61.99
0.257763,0.149694,0.609195,0.269968,0.298137,0.620058,0.468138,0.00549451,18.02
0.257763,0.149694,0.609195,0.269968,0.298137,0.620058,0.468138,0.0741758,52.2
0.257763,0.149694,0.609195,0.269968,0.298137,0.620058,0.468138,0.271978,56.63
0.266895,0.0,0.62019,0.293131,0.350932,0.807267,0.504014,0.0357143,26.05
0.266895,0.0,0.62019,0.293131,0.350932,0.807267,0.504014,0.151099,37.27
0.625571,0.0,0.0,0.741214,0.0,0.588663,0.422479,0.00549451,16.28
0.625571,0.0,0.0,0.741214,0.0,0.588663,0.422479,0.0741758,31.97
0.625571,0.0,0.0,0.741214,0.0,0.588663,0.422479,0.271978,43.06
0.851598,0.0,0.294853,0.161342,0.0590062,0.863372,0.117913,0.0741758,57.23
0.920091,0.0,0.29985,0.584665,0.0,0.665698,0.0903161,0.0741758,64.02
0.945205,0.0,0.0,0.321086,0.254658,0.0,0.521826,0.0741758,41.37
0.972603,0.0,0.0,0.504792,0.214286,0.34593,0.316106,0.0741758,56.83
0.646119,0.0,0.67966,0.289137,0.621118,0.296512,0.436528,0.0741758,55.55
0.794749,0.139121,0.0,0.624601,0.0931677,0.940116,0.0481686,0.0741758,39.38
0.527397,0.0486923,0.814593,0.361022,0.555901,0.56686,0.145509,0.0741758,47.28
0.691781,0.0,0.0,0.42492,0.0,0.927326,0.253387,0.0741758,52.3
0.945205,0.0,0.0,0.321086,0.257764,0.0,0.521826,0.0741758,41.37
0.13242,0.356149,0.609695,0.480831,0.198758,0.0668605,0.715003,0.0741758,39.4
0.3379,0.500835,0.474763,0.297125,0.295031,0.171512,0.516809,0.0741758,67.87
0.417808,0.528659,0.0,0.329073,0.236025,0.668605,0.228299,0.0741758,53.58
0.394977,0.500835,0.5997,0.321086,0.322981,0.0843023,0.429002,0.0741758,76.24
0.143836,0.0,0.717641,0.335463,0.0,0.594767,0.769945,0.00549451,14.4
0.173516,0.361157,0.592704,0.464058,0.111801,0.599709,0.383342,0.00549451,20.73
0.160731,0.0378408,0.861569,0.279553,0.127329,0.596802,0.658304,0.00549451,21.29
0.148402,0.209794,0.834583,0.337061,0.245342,0.599709,0.441796,0.00549451,15.52
0.201598,0.0,0.625687,0.357827,0.307453,0.80814,0.514049,0.00549451,12.55
0.254566,0.0,0.870565,0.298722,0.363354,0.705233,0.446312,0.00549451,15.61
0.341096,0.0,0.591204,0.567891,0.180124,0.705233,0.402158,0.00549451,11.98
0.143836,0.35754,0.66017,0.425719,0.251553,0.595349,0.38284,0.0357143,33.09
0.149315,0.361436,0.642679,0.428914,0.242236,0.596802,0.38284,0.0357143,31.81
0.163242,0.139399,0.867066,0.34345,0.201863,0.596512,0.500502,0.0357143,33.01
0.163927,0.259878,0.7991,0.403355,0.301242,0.599419,0.38284,0.0357143,29.55
0.3379,0.0,0.478261,0.559105,0.164596,0.429942,0.660311,0.0357143,24.66
0.211644,0.0,0.502249,0.386581,0.232919,0.572674,0.772203,0.0357143,24.28
0.143836,0.0,0.717641,0.335463,0.0,0.594767,0.769945,0.0741758,26.2
0.173516,0.361157,0.592704,0.464058,0.111801,0.599709,0.383342,0.0741758,39.16
0.160731,0.0378408,0.861569,0.279553,0.127329,0.596802,0.658304,0.0741758,33.69
0.148402,0.209794,0.834583,0.337061,0.245342,0.599709,0.441796,0.0741758,41.41
0.201598,0.0,0.625687,0.357827,0.307453,0.80814,0.514049,0.0741758,24.85
0.254566,0.0,0.870565,0.298722,0.363354,0.705233,0.446312,0.0741758,44.64
0.341096,0.0,0.591204,0.567891,0.180124,0.705233,0.402158,0.0741758,33.27
0.143836,0.35754,0.66017,0.425719,0.251553,0.595349,0.38284,0.151099,53.72
0.149315,0.361436,0.642679,0.428914,0.242236,0.596802,0.38284,0.151099,51.72
0.163242,0.139399,0.867066,0.34345,0.201863,0.596512,0.500502,0.151099,53.77
0.163927,0.259878,0.7991,0.403355,0.301242,0.599419,0.38284,0.151099,48.99
0.3379,0.0,0.478261,0.559105,0.164596,0.429942,0.660311,0.151099,39.64
0.211644,0.0,0.502249,0.386581,0.232919,0.572674,0.772203,0.151099,43.39
0.143836,0.0,0.717641,0.335463,0.0,0.594767,0.769945,0.271978,37.96
0.173516,0.361157,0.592704,0.464058,0.111801,0.599709,0.383342,0.271978,49.99
0.160731,0.0378408,0.861569,0.279553,0.127329,0.596802,0.658304,0.271978,37.68
0.148402,0.209794,0.834583,0.337061,0.245342,0.599709,0.441796,0.271978,56.81
0.201598,0.0,0.625687,0.357827,0.307453,0.80814,0.514049,0.271978,33.56
0.254566,0.0,0.870565,0.298722,0.363354,0.705233,0.446312,0.271978,52.96
0.341096,0.0,0.591204,0.567891,0.180124,0.705233,0.402158,0.271978,40.15
0.785388,0.066778,0.394803,0.321086,0.360248,0.482558,0.296036,0.0741758,44.42
0.785388,0.066778,0.394803,0.321086,0.319876,0.482558,0.296036,0.0741758,53.39
0.785388,0.066778,0.394803,0.321086,0.360248,0.482558,0.296036,0.00549451,25.02
0.785388,0.066778,0.394803,0.321086,0.360248,0.482558,0.296036,0.0164835,52.01
0.785388,0.066778,0.394803,0.321086,0.360248,0.482558,0.296036,0.0164835,39.3
0.785388,0.066778,0.394803,0.321086,0.360248,0.482558,0.296036,0.151099,56.14
0.785388,0.066778,0.394803,0.321086,0.319876,0.482558,0.296036,0.151099,54.77
0.650685,0.0556483,0.469765,0.28115,0.431677,0.398256,0.629704,0.0741758,46.68
0.650685,0.0556483,0.469765,0.28115,0.444099,0.398256,0.629704,0.00549451,22.75
0.650685,0.0556483,0.469765,0.28115,0.360248,0.398256,0.629704,0.00549451,34.77
0.650685,0.0556483,0.469765,0.28115,0.431677,0.398256,0.629704,0.0164835,45.9
0.650685,0.0556483,0.469765,0.28115,0.444099,0.398256,0.629704,0.151099,56.34
0.650685,0.0556483,0.469765,0.28115,0.360248,0.398256,0.629704,0.151099,61.46
0.577626,0.0528659,0.484758,0.185304,0.381988,0.482558,0.694932,0.0741758,55.45
0.888128,0.0723428,0.614693,0.632588,0.121118,0.0610465,0.263422,0.0741758,57.92
0.888128,0.0723428,0.614693,0.704473,0.121118,0.235465,0.263422,0.0164835,33.49
0.888128,0.0723428,0.614693,0.632588,0.121118,0.0610465,0.263422,0.00549451,29.55
0.888128,0.0723428,0.614693,0.632588,0.121118,0.0610465,0.263422,0.151099,61.86
0.73516,0.0612131,0.65967,0.448882,0.263975,0.235465,0.39137,0.00549451,32.01
0.73516,0.0612131,0.65967,0.448882,0.263975,0.0610465,0.39137,0.0164835,39.0
0.73516,0.0612131,0.65967,0.36901,0.276398,0.0610465,0.39137,0.00549451,32.11
0.73516,0.0612131,0.65967,0.36901,0.276398,0.0610465,0.39137,0.151099,74.36
0.228311,0.0306066,0.704648,0.672524,0.052795,0.409884,0.519318,0.00549451,9.85
0.228311,0.0306066,0.704648,0.672524,0.052795,0.409884,0.519318,0.151099,23.25
0.415525,0.0417362,0.704648,0.456869,0.170807,0.119186,0.519318,0.00549451,13.4
0.415525,0.0417362,0.704648,0.456869,0.170807,0.119186,0.519318,0.151099,44.52
0.586758,0.0528659,0.704648,0.257188,0.338509,0.409884,0.519318,0.0741758,59.49
0.586758,0.0528659,0.704648,0.257188,0.338509,0.409884,0.519318,0.00549451,23.64
0.586758,0.0528659,0.704648,0.257188,0.338509,0.409884,0.519318,0.0164835,38.61
0.586758,0.0528659,0.704648,0.257188,0.338509,0.409884,0.519318,0.151099,66.78
0.426941,0.0,0.0,0.560703,0.0,0.326163,0.755896,0.244505,32.07
0.664384,0.0,0.0,0.560703,0.0,0.405814,0.480682,0.00549451,19.2
0.664384,0.0,0.0,0.560703,0.0,0.405814,0.480682,0.0741758,39.6
0.863014,0.0,0.0,0.560703,0.0,0.393023,0.296538,0.0164835,34.57
0.863014,0.0,0.0,0.560703,0.0,0.393023,0.296538,0.00549451,24.4
0.349315,0.0,0.0,0.560703,0.0,0.25814,0.880582,0.244505,21.86
0.426941,0.0,0.0,0.560703,0.0,0.326163,0.755896,0.0164835,14.6
0.527397,0.0,0.0,0.560703,0.0,0.378488,0.623683,0.0741758,31.97
0.426941,0.0,0.0,0.560703,0.0,0.326163,0.755896,0.0741758,25.57
0.664384,0.0,0.0,0.560703,0.0,0.405814,0.480682,0.0164835,27.74
0.12968,0.662771,0.0,0.510383,0.0,0.696512,0.351982,0.0164835,9.62
0.310959,0.441848,0.0,0.510383,0.0,0.696512,0.351982,0.0164835,15.69
0.208904,0.807457,0.0,0.510383,0.0,0.573256,0.276719,0.0741758,32.63
0.389954,0.506121,0.0,0.510383,0.0,0.614535,0.301806,0.0164835,19.77
0.271233,0.409572,0.0,0.510383,0.0,0.738372,0.37707,0.0741758,25.75
0.640411,0.0,0.0,0.510383,0.0,0.717442,0.364526,0.0164835,24.07
0.12968,0.662771,0.0,0.510383,0.0,0.696512,0.351982,0.0741758,21.07
0.350457,0.473845,0.0,0.510383,0.0,0.655814,0.326894,0.0741758,32.05
0.673516,0.0,0.0,0.510383,0.0,0.696512,0.351982,0.0164835,25.45
0.442466,0.0,0.0,0.510383,0.0,0.844186,0.439789,0.0741758,25.22
0.271233,0.409572,0.0,0.510383,0.0,0.738372,0.37707,0.0164835,13.09
0.0769406,0.566221,0.0,0.510383,0.0,0.8,0.414701,0.0164835,7.51
0.541553,0.0,0.0,0.510383,0.0,0.779651,0.402158,0.0164835,21.18
0.208904,0.807457,0.0,0.510383,0.0,0.573256,0.276719,0.0164835,17.2
0.42968,0.538397,0.0,0.510383,0.0,0.573256,0.276719,0.0164835,21.86
0.155936,0.432666,0.0,0.510383,0.0,0.655814,0.326894,0.0741758,25.73
0.287671,0.951864,0.0,0.510383,0.0,0.45,0.201455,0.0164835,21.92
0.6379,0.0,0.0,0.510383,0.0,0.882558,0.477421,0.0164835,14.54
0.192237,0.345298,0.0,0.510383,0.0,0.82093,0.427245,0.0164835,8.0
0.310731,0.0,0.0,0.510383,0.0,0.923837,0.489965,0.0164835,10.34
0.640411,0.0,0.0,0.510383,0.0,0.717442,0.364526,0.0741758,37.44
0.488813,0.586255,0.0,0.510383,0.0,0.511628,0.239087,0.0164835,24.44
0.155936,0.432666,0.0,0.510383,0.0,0.655814,0.326894,0.0164835,10.73
0.541096,0.0,0.0,0.600639,0.0,0.485465,0.469142,0.00549451,13.22
0.541096,0.0,0.0,0.600639,0.0,0.485465,0.469142,0.0357143,27.04
0.541096,0.0,0.0,0.600639,0.0,0.485465,0.469142,0.244505,35.17
0.541096,0.0,0.0,0.600639,0.0,0.485465,0.469142,1.0,38.89
0.305936,0.0,0.0,0.576677,0.0,0.485465,0.730055,0.0357143,12.84
0.305936,0.0,0.0,0.576677,0.0,0.485465,0.730055,0.244505,21.95
0.305936,0.0,0.0,0.56869,0.0,0.485465,0.730055,1.0,25.08
0.399543,0.0,0.0,0.552716,0.0,0.485465,0.657301,0.0741758,25.97
0.399543,0.0,0.0,0.552716,0.0,0.485465,0.657301,0.244505,31.25
0.399543,0.0,0.0,0.552716,0.0,0.485465,0.657301,0.986264,33.7
0.347032,0.0,0.0,0.608626,0.0,0.485465,0.674862,0.244505,26.94
0.347032,0.0,0.0,0.608626,0.0,0.485465,0.674862,1.0,29.79
0.468037,0.0,0.0,0.56869,0.0,0.485465,0.546914,1.0,36.15
0.468037,0.0,0.0,0.56869,0.0,0.485465,0.546914,0.0741758,27.53
0.305936,0.0,0.0,0.56869,0.0,0.485465,0.730055,0.0164835,9.99
0.223744,0.0,0.0,0.464856,0.0,0.94186,0.629704,0.0741758,12.25
0.280822,0.0,0.0,0.472843,0.0,0.906977,0.599599,0.0741758,17.34
0.509132,0.0,0.0,0.496805,0.0,0.761628,0.47416,0.0741758,30.57
0.394977,0.0,0.0,0.488818,0.0,0.834302,0.536879,0.0741758,24.5
0.452055,0.0,0.0,0.496805,0.0,0.796512,0.504265,0.0741758,26.85
0.623288,0.0,0.0,0.51278,0.0,0.688953,0.41144,0.0741758,38.21
0.680365,0.0,0.0,0.520767,0.0,0.651163,0.378826,0.0164835,30.14
0.3379,0.0,0.0,0.480831,0.0,0.869186,0.566984,0.0741758,20.87
0.56621,0.0,0.0,0.51278,0.0,0.723837,0.441545,0.0741758,34.29
0.338356,0.464107,0.0,0.652556,0.0,0.513372,0.251129,0.244505,47.71
0.089726,0.589872,0.0,0.652556,0.0,0.496512,0.387607,0.0741758,29.89
0.047032,0.511686,0.0,0.652556,0.0,0.456977,0.51706,0.244505,33.19
0.0,0.42571,0.0,0.560703,0.0,0.25,0.873056,0.00549451,4.57
0.047032,0.511686,0.0,0.652556,0.0,0.456977,0.51706,0.0741758,24.29
0.223744,0.370061,0.0,0.560703,0.0,0.477907,0.532363,0.00549451,11.41
0.464155,0.566221,0.0,0.652556,0.0,0.477907,0.0928249,0.0164835,25.89
0.0319635,0.481358,0.0,0.560703,0.0,0.316279,0.747366,0.244505,31.02
0.125571,0.65665,0.0,0.560703,0.0,0.390698,0.469644,0.0741758,33.66
0.338356,0.464107,0.0,0.652556,0.0,0.513372,0.251129,0.0164835,19.35
0.205479,0.801336,0.0,0.560703,0.0,0.374419,0.306322,0.00549451,12.79
0.116438,0.283806,0.0,0.560703,0.0,0.252907,0.875815,0.00549451,4.78
0.464155,0.566221,0.0,0.652556,0.0,0.477907,0.0928249,0.0741758,43.38
0.1621,0.32276,0.0,0.560703,0.0,0.423837,0.659308,0.00549451,6.94
0.305936,0.436839,0.0,0.560703,0.0,0.498837,0.389112,0.00549451,13.57
0.147945,0.69616,0.0,0.652556,0.0,0.507558,0.247366,0.0164835,15.75
0.424658,0.534224,0.0,0.560703,0.0,0.380814,0.310587,0.0741758,38.8
0.0,0.42571,0.0,0.560703,0.0,0.25,0.873056,0.0741758,17.28
0.186986,0.341124,0.0,0.652556,0.0,0.459884,0.516809,0.0741758,24.05
0.205479,0.801336,0.0,0.560703,0.0,0.374419,0.306322,0.244505,50.73
0.464155,0.566221,0.0,0.652556,0.0,0.477907,0.0928249,0.00549451,14.14
0.0143836,0.451864,0.0,0.652556,0.0,0.398837,0.639739,0.00549451,2.33
0.424658,0.534224,0.0,0.560703,0.0,0.380814,0.310587,0.0164835,23.52
0.251142,0.393155,0.0,0.652556,0.0,0.501163,0.39137,0.244505,39.7
0.305936,0.436839,0.0,0.560703,0.0,0.498837,0.389112,0.0741758,32.88
0.186986,0.341124,0.0,0.652556,0.0,0.459884,0.516809,0.0164835,10.79
0.231735,0.849471,0.0,0.652556,0.0,0.472093,0.0903161,0.0741758,41.68
0.0707763,0.556483,0.0,0.560703,0.0,0.367442,0.615153,0.00549451,6.88
0.223744,0.370061,0.0,0.560703,0.0,0.477907,0.532363,0.0164835,17.17
0.338356,0.464107,0.0,0.652556,0.0,0.513372,0.251129,0.00549451,9.73
0.116438,0.283806,0.0,0.560703,0.0,0.252907,0.875815,0.244505,26.32
0.0319635,0.481358,0.0,0.560703,0.0,0.316279,0.747366,0.00549451,6.28
0.338356,0.464107,0.0,0.652556,0.0,0.513372,0.251129,0.0741758,36.96
0.205479,0.801336,0.0,0.560703,0.0,0.374419,0.306322,0.0164835,21.48
0.116438,0.283806,0.0,0.560703,0.0,0.252907,0.875815,0.0164835,8.37
0.0319635,0.481358,0.0,0.560703,0.0,0.316279,0.747366,0.0164835,10.09
0.047032,0.511686,0.0,0.652556,0.0,0.456977,0.51706,0.0164835,10.35
0.231735,0.849471,0.0,0.652556,0.0,0.472093,0.0903161,0.244505,51.86
0.474886,0.0,0.0,0.560703,0.0,0.613372,0.592072,0.0164835,17.24
0.474886,0.0,0.0,0.560703,0.0,0.613372,0.592072,0.244505,35.76
0.522831,0.0,0.0,0.560703,0.0,0.651163,0.569493,0.00549451,14.31
0.522831,0.0,0.0,0.560703,0.0,0.651163,0.569493,0.0741758,31.74
0.522831,0.0,0.0,0.560703,0.0,0.651163,0.569493,0.326923,39.38
0.563927,0.0,0.0,0.560703,0.0,0.741279,0.539388,0.0164835,9.01
0.563927,0.0,0.0,0.560703,0.0,0.741279,0.539388,0.244505,40.66
0.310502,0.0,0.0,0.51278,0.0,0.924419,0.489212,0.0164835,12.05
0.442922,0.0,0.0,0.51278,0.0,0.840116,0.439037,0.0164835,18.91
0.445205,0.0,0.0,0.51278,0.0,0.694767,0.351229,0.0164835,30.96
0.863014,0.0,0.0,0.560703,0.0,0.392442,0.318615,0.244505,54.28
0.408676,0.0,0.0,0.51278,0.0,0.880814,0.451581,0.0164835,14.5
0.908676,0.0,0.0,0.624601,0.0,0.94186,0.0476668,0.0,12.64
0.908676,0.0,0.0,0.624601,0.0,0.94186,0.0476668,0.0164835,33.21
0.908676,0.0,0.0,0.624601,0.0,0.94186,0.0476668,0.0741758,44.09
1.0,0.0,0.0,0.408946,0.0,0.94186,0.0476668,0.0357143,59.76
1.0,0.0,0.0,0.408946,0.0,0.94186,0.0476668,0.244505,69.66
1.0,0.0,0.0,0.408946,0.0,0.94186,0.0476668,0.739011,74.17
0.56621,0.0,0.0,0.648562,0.0,0.502907,0.454089,0.0357143,22.53
0.56621,0.0,0.0,0.648562,0.0,0.502907,0.454089,0.151099,29.98
0.56621,0.0,0.0,0.648562,0.0,0.502907,0.454089,0.491758,32.72
0.646119,0.0,0.0,0.51278,0.0,0.479651,0.423984,0.00549451,14.7
0.646119,0.0,0.0,0.51278,0.0,0.479651,0.423984,0.0357143,27.92
0.522831,0.0,0.0,0.560703,0.0,0.514535,0.579528,0.491758,39.0
0.563927,0.0,0.0,0.560703,0.0,0.715116,0.531862,0.00549451,14.99
0.639269,0.0,0.0,0.51278,0.0,0.715116,0.363773,0.0164835,24.0
0.639269,0.0,0.0,0.51278,0.0,0.901163,0.476668,0.0164835,11.47
0.541096,0.0,0.0,0.504792,0.0,0.77907,0.401405,0.0164835,21.16
0.440639,0.0,0.0,0.504792,0.0,0.77907,0.439037,0.0164835,14.8
0.310502,0.0,0.0,0.504792,0.0,0.921512,0.489212,0.0741758,17.54
0.442922,0.0,0.0,0.560703,0.0,0.825581,0.429002,0.0741758,21.65
0.522831,0.0,0.0,0.560703,0.0,0.226744,0.579528,0.00549451,13.52
0.522831,0.0,0.0,0.560703,0.0,0.514535,0.579528,0.0741758,31.45
0.563927,0.0,0.0,0.560703,0.0,0.715116,0.531862,0.0164835,18.13
0.563927,0.0,0.0,0.560703,0.0,0.715116,0.531862,0.244505,39.49
0.563927,0.0,0.0,0.560703,0.0,0.715116,0.531862,0.986264,42.13
0.456621,0.0,0.0,0.648562,0.0,0.502907,0.559458,0.491758,26.74
0.908676,0.0,0.0,0.624601,0.0,0.94186,0.0476668,0.244505,47.22
0.908676,0.0,0.0,0.624601,0.0,0.94186,0.0476668,0.739011,55.16
0.342466,0.0,0.0,0.504792,0.0,0.901163,0.476668,0.0164835,13.71
0.541096,0.0,0.0,0.504792,0.0,0.752907,0.401405,0.0741758,31.65
0.664384,0.0,0.0,0.560703,0.0,0.40407,0.41144,0.0741758,39.58
0.639269,0.0,0.0,0.504792,0.0,0.715116,0.363773,0.0164835,24.0
0.342466,0.0,0.0,0.51278,0.0,0.901163,0.476668,0.0164835,11.47
0.474886,0.0,0.0,0.560703,0.0,0.491279,0.642248,0.0164835,14.99
0.474886,0.0,0.0,0.560703,0.0,0.491279,0.642248,0.244505,34.68
0.474886,0.0,0.0,0.560703,0.0,0.491279,0.642248,0.986264,38.11
0.965753,0.0,0.0,0.536741,0.0,0.94186,0.0476668,0.0164835,42.42
0.965753,0.0,0.0,0.536741,0.0,0.94186,0.0476668,0.0741758,55.94
0.965753,0.0,0.0,0.536741,0.0,0.94186,0.0476668,0.739011,67.11
0.502283,0.0,0.0,0.648562,0.0,0.502907,0.516809,0.0741758,25.18
0.456621,0.0,0.0,0.648562,0.0,0.502907,0.559458,0.0741758,21.75
0.863014,0.0,0.0,0.560703,0.0,0.392442,0.318615,0.00549451,24.39
0.958904,0.0,0.0,0.193291,0.0,0.276163,0.757652,0.0741758,74.99
0.136986,0.528659,0.73963,0.456869,0.590062,0.107558,0.368791,0.0741758,33.76
0.10274,0.319978,0.444778,0.640575,0.279503,0.171512,0.589563,0.0741758,19.99
0.474886,0.397885,0.554723,0.36901,0.68323,0.328488,0.143001,0.0741758,33.69
0.461187,0.389538,0.0,0.736422,0.186335,0.273256,0.321124,0.0741758,33.42
0.130137,0.41458,0.57971,0.42492,0.465839,0.44186,0.316106,0.0741758,27.68
0.474886,0.397885,0.0,0.36901,0.310559,0.328488,0.526844,0.0741758,45.3
0.111872,0.0,0.91954,0.361022,0.372671,0.552326,0.446563,0.0741758,15.57
0.447489,0.381191,0.534733,0.632588,0.186335,0.223837,0.153036,0.0741758,53.52
0.60274,0.520312,0.0,0.552716,0.217391,0.0668605,0.408931,0.0741758,65.91
0.342466,0.269894,0.37981,0.576677,0.248447,0.0988372,0.569493,0.0741758,33.4
0.123288,0.676127,0.0,0.464856,0.341615,0.642442,0.260913,0.0741758,37.36
0.447489,0.0,0.534733,0.51278,0.186335,0.226744,0.554441,0.0741758,42.64
0.422374,0.336672,0.469765,0.528754,0.279503,0.299419,0.255896,0.0741758,41.94
0.579909,0.0,0.709645,0.56869,0.341615,0.0,0.461616,0.0741758,40.87
0.502283,0.41458,0.0,0.51278,0.248447,0.436047,0.28851,0.0741758,52.42
0.484018,0.0,0.564718,0.384984,0.310559,0.360465,0.47416,0.0741758,38.46
0.086758,0.456316,0.63968,0.920128,0.186335,0.197674,0.155544,0.0741758,35.23
0.447489,0.0,0.534733,0.704473,0.341615,0.229651,0.376317,0.0741758,31.87
0.13242,0.695604,0.0,0.36901,0.372671,0.72093,0.235825,0.0741758,39.45
0.39726,0.32276,0.449775,0.464856,0.279503,0.200581,0.436528,0.0741758,44.28
0.107306,0.386756,0.544728,0.56869,0.186335,0.264535,0.466633,0.0741758,23.69
0.363014,0.278242,0.389805,0.632588,0.279503,0.18314,0.418966,0.0741758,32.4
0.481735,0.0,0.564718,0.448882,0.248447,0.584302,0.238334,0.0741758,36.8
0.100457,0.639955,0.0,0.640575,0.0931677,0.0755814,0.697441,0.0741758,33.06
0.0707763,0.584307,0.0,0.592652,0.0931677,0.430233,0.504265,0.0741758,31.03
0.114155,0.0,0.55972,0.496805,0.248447,0.555233,0.556949,0.0741758,12.18
0.086758,0.370061,0.514743,0.624601,0.217391,0.334302,0.398896,0.0741758,36.44
0.452055,0.0,0.5997,0.720447,0.310559,0.223837,0.336177,0.0741758,23.84
0.105023,0.0,0.684658,0.289137,0.496894,0.584302,0.592072,0.0741758,17.95
0.116438,0.40345,0.0,0.448882,0.248447,0.578488,0.572002,0.0741758,19.01
0.127854,0.0,0.974513,0.784345,0.341615,0.281977,0.298545,0.0741758,8.54
0.390411,0.0,0.449775,0.616613,0.341615,0.377907,0.421475,0.0741758,32.24
0.0936073,0.470228,0.714643,0.552716,0.248447,0.482558,0.12293,0.0741758,29.72
0.481735,0.447969,0.0,0.448882,0.310559,0.337209,0.413949,0.0741758,52.44
0.534247,0.0,0.0,0.480831,0.0931677,0.537791,0.559458,0.0741758,44.86
0.109589,0.659432,0.0,0.416933,0.372671,0.77907,0.203211,0.0741758,37.43
0.522831,0.473011,0.0,0.584665,0.248447,0.0290698,0.521826,0.0741758,56.61
0.121005,0.509182,0.0,0.56869,0.279503,0.22093,0.687406,0.0741758,23.79
0.374429,0.31163,0.434783,0.448882,0.310559,0.31686,0.378826,0.0741758,39.42
0.481735,0.40345,0.0,0.0415335,0.248447,0.578488,0.572002,0.0741758,44.52
0.0958904,0.378408,0.529735,0.448882,0.217391,0.406977,0.451581,0.0741758,26.14
0.399543,0.325543,0.454773,0.552716,0.217391,0.421512,0.180632,0.0741758,43.57
0.481735,0.40345,0.0,0.448882,0.248447,0.584302,0.238334,0.0741758,41.05
0.426941,0.372844,0.0,0.584665,0.186335,0.357558,0.416458,0.0741758,46.24
0.0981735,0.0,0.894553,0.640575,0.248447,0.0668605,0.689915,0.0741758,10.54
0.0776256,0.450751,0.629685,0.400958,0.310559,0.354651,0.426493,0.0741758,29.07
0.349315,0.275459,0.384808,0.536741,0.186335,0.343023,0.388861,0.0741758,33.8
0.0776256,0.545353,0.489755,0.616613,0.186335,0.133721,0.47416,0.0741758,26.97
0.136986,0.595437,0.81959,0.640575,0.310559,0.0552326,0.215755,0.0741758,30.65
0.107306,0.42571,0.969515,0.560703,0.248447,0.389535,0.0727546,0.0741758,24.58
0.130137,0.581525,0.804598,0.632588,0.217391,0.136628,0.188159,0.0741758,30.88
0.118721,0.48414,0.924538,0.848243,0.217391,0.127907,0.0451581,0.0741758,24.34
0.187215,0.239288,0.949525,0.728435,0.186335,0.354651,0.0727546,0.0741758,22.93
0.307991,0.255147,0.357321,0.999201,0.186335,0.150872,0.25439,0.0741758,28.63
0.120548,0.510295,0.0,0.571086,0.282609,0.716279,0.257652,0.0741758,18.29
0.442922,0.0,0.533233,0.795527,0.326087,0.052907,0.462619,0.0741758,31.42
0.48242,0.40345,0.0,0.452875,0.248447,0.192442,0.57702,0.0741758,40.93
0.116667,0.40345,0.564718,0.452875,0.248447,0.584012,0.237582,0.0741758,25.56
0.108447,0.65665,0.0,0.43131,0.391304,0.13314,0.749373,0.0741758,32.96
0.116667,0.40345,0.564718,0.452875,0.248447,0.192442,0.57702,0.0741758,26.23
0.512557,0.0,0.689155,0.616613,0.335404,0.000290698,0.497993,0.0741758,38.63
0.365068,0.307457,0.430285,0.587859,0.15528,0.273837,0.347717,0.0741758,33.72
0.111187,0.0,0.926037,0.358626,0.484472,0.795058,0.210738,0.0741758,13.46
0.107306,0.327212,0.458271,0.488019,0.220497,0.443023,0.467386,0.0741758,23.52
0.360502,0.279911,0.391804,0.389776,0.322981,0.39157,0.423733,0.0741758,49.77
0.415525,0.333055,0.0,0.371406,0.223602,0.492442,0.502258,0.0741758,40.93
0.0977169,0.0,0.667666,0.471246,0.34472,0.518895,0.54566,0.0741758,13.2
0.0952055,0.473567,0.662669,0.557508,0.263975,0.0380814,0.530105,0.0741758,29.87
0.120548,0.0,0.713643,0.571086,0.282609,0.716279,0.257652,0.0741758,12.46
0.0746575,0.0,0.828086,0.466454,0.310559,0.465116,0.529102,0.0741758,13.29
0.484018,0.404285,0.565717,0.45607,0.248447,0.197965,0.241345,0.0741758,46.23
0.0997717,0.480245,0.0,0.480032,0.10559,0.537209,0.558956,0.0741758,23.74
0.105251,0.0,0.910045,0.476038,0.465839,0.110174,0.728299,0.0741758,15.53
0.447717,0.0,0.537231,0.333866,0.397516,0.442442,0.476668,0.0741758,35.87
0.121461,0.511686,0.715642,0.57508,0.285714,0.228488,0.262168,0.0741758,28.99
0.104566,0.487201,0.0,0.394569,0.068323,0.578488,0.588309,0.0741758,26.92
0.48105,0.0,0.0,0.449681,0.248447,0.577616,0.572504,0.0741758,25.1
0.120548,0.0,0.713643,0.571086,0.282609,0.221512,0.686653,0.0741758,9.74
0.389954,0.292432,0.408796,0.702077,0.279503,0.299419,0.215003,0.0741758,37.17
0.117808,0.401224,0.561219,0.785144,0.313665,0.355233,0.160311,0.0741758,16.5
0.113699,0.495548,0.693153,0.365016,0.568323,0.415698,0.252383,0.0741758,36.35
0.0949772,0.0,0.874063,0.292332,0.555901,0.411919,0.62845,0.0741758,15.42
0.621689,0.0,0.0,0.546326,0.208075,0.61686,0.342198,0.0741758,39.06
0.115525,0.664162,0.0,0.624601,0.195652,0.583721,0.225539,0.0741758,26.86
0.463014,0.0,0.497751,0.592652,0.304348,0.460465,0.278976,0.0741758,30.12
0.0910959,0.46355,0.648176,0.412939,0.338509,0.237209,0.47993,0.0741758,44.61
0.500685,0.456873,0.0,0.548722,0.142857,0.200581,0.451581,0.0741758,57.22
0.405936,0.358653,0.501749,0.404153,0.295031,0.0700581,0.529102,0.0741758,52.83
0.142922,0.0,0.751624,0.477636,0.363354,0.646221,0.338435,0.0741758,18.03
0.132877,0.523094,0.731634,0.65016,0.350932,0.0805233,0.290266,0.0741758,35.31
0.492922,0.0,0.632184,0.702077,0.177019,0.172965,0.357752,0.0741758,40.06
0.510502,0.462994,0.0,0.416933,0.276398,0.234302,0.491721,0.0741758,61.24
0.0684932,0.574569,0.804098,0.45607,0.170807,0.19157,0.355243,0.0741758,33.31
0.142009,0.0,1.0,0.474441,0.391304,0.140407,0.632213,0.0741758,15.09
0.500913,0.0,0.63918,0.484824,0.357143,0.200872,0.465881,0.0741758,37.27
0.425571,0.336672,0.0,0.444089,0.217391,0.310756,0.590818,0.0741758,42.14
0.371005,0.308848,0.432284,0.588658,0.18323,0.0918605,0.492725,0.0741758,41.54
0.146119,0.722593,0.0,0.490415,0.39441,0.168023,0.584044,0.0741758,37.92
0.50274,0.0,0.577711,0.592652,0.322981,0.0491279,0.550426,0.0741758,31.18
0.130365,0.519477,0.0,0.429712,0.350932,0.548256,0.488961,0.0741758,32.77
0.362785,0.279633,0.391304,0.629393,0.267081,0.184593,0.420221,0.0741758,32.4